Folder: Python-data-analysis-and-visualization/Python数据分析与可视化/Matplotlib数据可视化/数据集

Note: Python数据分析与可视化/Matplotlib数据可视化/数据集/9.9 his.txt
91.1748
81.64305
93.0148
84.629425
88.4625
68.140425
74.328175
77.47105
86.18625
61.428625
90.2348
93.62
95.05
81.43625
82.99
80.4
93.67
85.855
99.6325
86.4975
83.690875
88.575
82.340875
81.73375
72.72625
65.562625
87.49625
85.6575
94.7023
89.276125
90.4175
85.605
84.8925
80.674175
67.721125
71.18
89.0123
71.615125
82.39
81.76
82.8025
94.93375
98.3725
83.18125
68.665
74.581
88.261625
80.2325
76.35625
96.9625
77.3575
85.132375
78.87625
66.35
77.687625
92.4343
91.26625
74.49125
90.11875
86.96875
90.2725
91.0925
86.48125
75.78625
87.41
84.265
80.864125
88.659125
88.67
88.025
80.68875
82.78375
91.41875
88.7
83.247925
90.228175
78.525
85.82
88.31375
84.4225
87.4298
85.795
90.4
91.9
81.4075
88.942375
86.35625
90.39875
95.225
90.82625
88.8825
87.53105
84.02125
88.618875
77.99625
83.61355
77.89
88.9898
96.55375
93.495875
92.8225
70.28
88.105
84.47875
90.0125
91.045
78.449425
86.16355
90.22
92.326375
94.99
81.97
84.82
89.71625
88.32125
82.27
96.90125
83.597875
87.46825
85.12
85.21
86.125
84.49
90.58
90.57875
85.97875
92.6948
100
78.01075
91.11125
90.32105
86.97625
90.47
91.367
94.145
80.88125
77.603875
92.07125
72.3025
80.4825
77.192125
84.97105
87.7375
87.55
84.895
84.37
86.8273
90.89875
95.95105
60

Note: Python数据分析与可视化/Matplotlib数据可视化/数据集/9.10 scoreRadar.txt
专业	C语言	Java	Python	C#	Javascript
软件工程 	95	96	85	63	91
计算机科学与技术	75	93	66	85	88
网络工程 	86	76	96	93	67

Note: Python数据分析与可视化/Matplotlib数据可视化/数据集/tiobe_pie.txt
Python,15.42
C,14.59
Java,12.40
C++,10.17
C#,5.59
Visual Basic,4.99
JavaScript,2.33
Assembly language,2.17
SQL,	1.70
PHP,1.39
Other,29.25

Note: Python数据分析与可视化/Matplotlib数据可视化/数据集/校长2018毕业讲话.txt
用奋斗谱写卓越人生
——在武汉理工大学2018届毕业生毕业典礼上的讲话
张清杰
2018年6月22日
尊敬的各位家长、各位老师，亲爱的同学们：
今天，我们欢聚在这里，隆重举行2018届毕业生毕业典礼。在此，我代表学校全体校领导和师生员工，向顺利完成学业的同学们，表示最热烈的祝贺和最美好的祝愿！向为同学们成长付出辛勤劳动的家长和老师们，表示崇高的敬意和衷心的感谢！
2014年的金秋时节，我以“人生境界与人之大成”为题给你们上了进入大学的第一课，我讲到你们真正的成长，就是要发起于自我内心，置身于这所大学，立足于这个时代，努力成就个人之大，成就大学之大，成就时代之大。回望过去的四年，是你们自我塑造、自我升华的四年，也是你们探求真知、拼搏奋斗的四年。你们的成长与进步有目共睹，我看到了你们求知若渴、挑灯夜读，让图书馆一座难求，让“泡图书馆”成为校园的靓丽风景，所展现的刻苦与勤奋；我看到了材料学科2018届博士研究生刘志愿潜心钻研，研制出两种新型磁性纳米复合热电材料，发现了具有重要科学意义的材料热电磁新效应，在国际顶尖学术期刊Nature上发表了原创性成果，所展现的执着与追求；我看到了艺术与设计学院博士研究生蒋孟创办建筑设计公司，仅1年时间销售收入就突破3000万元，所展现的创新创业与胆识；我看到了政治与行政学院黄莺同学荣获2017年度“中国大学生自强之星标兵”，所展现的责任与担当；我也看到了计算机学院软件工程专业2018届“理工男”黄思远，用近千字文言文撰写的毕业论文致谢词刷爆朋友圈，所展现的感恩与文化底蕴……看到你们的成长和进步，我为你们感到由衷地骄傲与自豪。
过去的四年，是母校聚焦内涵、跨越发展的四年，也是母校夯实基础、砥砺奋进的四年。你们见证了母校学科建设与办学水平的提升，学校进入国家“世界一流大学一流学科建设高校”行列，材料科学与工程学科进入国家第四轮学科评估A+等级，与清华大学、北京航空航天大学并列全国第一；你们见证了母校大师级学科领军人才的新突破，学校新增中国科学院院士1人、中国工程院院士1人、欧洲科学院院士1人、世界陶瓷科学院院士1人、俄罗斯工程院外籍院士1人；你们也见证了母校社会影响力和校友力量的强大，学校举办的“融理工校友资智，助武汉崛起腾飞” 校友资智回汉工程专场活动，现场签约投资2607亿元，为武汉国家中心城市建设做出重要贡献，时任湖北省委副书记、武汉市委书记陈一新高度评价学校“举起了大旗、做出了示范、走在了前列”……亲爱的同学们，过去的四年，母校的每一次进步，都凝聚着你们的智慧和力量，也为你们未来的发展铸就了坚强的后盾。
每年的这个时节，在同学们即将离开母校的时候，作为校长，我都要在毕业典礼上送给同学们临别赠言。今天，我想从2018年的关键词“奋斗”说起。在2018年的新年贺词中，习近平总书记那句铿锵话语“幸福都是奋斗出来的”，“奋斗”迅速成为开年热词，在全国人民心中产生了强烈的共鸣。习近平总书记对“奋斗”进行了深入解读：奋斗是艰辛的，没有艰辛就不是真正的奋斗；奋斗是长期的，前人栽树、后人乘凉；奋斗是曲折的，要奋斗就会有牺牲。亲爱的同学们，作为一名理工大人，你们该怎样去“奋斗”呢？我送给同学们三句话：奋斗需要树立远大的目标、奋斗需要秉持坚定的意志、奋斗需要弘扬实干的精神。
奋斗需要树立远大的目标，这是你们前行的方向、奋进的灯塔。目标是人通过努力奋斗最终达成的内心向往。远大的目标决定着人生的高度，向着远大目标指引的方向去奋斗，向着远大目标照亮的天空去奋斗，人生的境界就会得到升华。今年上映的大型纪录片《厉害了，我的国》，相信大家都记忆犹新，其中有2位科学家更是家喻户晓。一位是中国核潜艇之父黄旭华，为了实现我国核潜艇技术从“跟跑者”变成“领跑者”的目标，他隐姓埋名，和他的团队一起潜心研究，用30年的奋斗，使中国成为世界上第五个拥有核动力潜艇的国家。另一位是中国天眼之父南仁东，为了实现我国成为世界天文探测“领航人”的目标，他鞠躬尽瘁死而后已，带领团队历时22年，建成了处于国际领先水平的世界最大单口径射电望远镜，使中国进入观天时代。亲爱的同学们，经过大学的熏陶，“以智慧引领人生、以卓越引领社会”早已流淌进你们的血液。面向新时代，我真诚地希望你们胸怀天下、立志高远，以实现中华民族伟大复兴、实现中国梦为己任，永葆为梦想努力拼搏的心，沿着目标指引的方向奋勇向前、不懈奋斗。
奋斗需要秉持坚定的意志，这是你们前行的动力、奋进的定力。意志力是人的核心竞争力之一，成功者与普通人的区别就在于成功者有更加坚定的意志。坚定的意志归根结底就是坚韧不拔、坚定执着，绝不轻言放弃。在奋斗的过程中，你们一定会碰到各种各样的困难，要克服这些困难，实现奋斗的目标，就必须秉持坚定的意志。法国著名作家巴尔扎克说过“没有伟大的意志力,就不可能有雄才大略”。俄国伟大的作家托尔斯泰说过“情况越严重，越困难，就越需要坚定、积极、果敢，而消极无为就越有害”。宋代著名词人苏轼也曾说过“古之立大事者，不惟有超世之才，亦必有坚韧不拔之志”。我真诚地希望你们秉持坚定的意志，拿出“想赢，就别怕输”的豪气，始终保持奋斗的状态，用坚韧不拔之志、坚定执着之心，守护着自己不断走向成功。
奋斗需要弘扬实干的精神，这是你们成功的基石、奋进的阶梯。清代学者颜元说过“圣人是肯做工夫的庸人”。“肯做工夫”就是实干。成功者，他们并不是与生俱来的天才，而是愿意付出更多努力和实践的凡人。我国著名的文学大家钱钟书说过“越是聪明人，越要懂得下笨功夫”。他的笨功夫就是“横扫清华图书馆”，争分夺秒地读书。正是他下足了经年累月的“笨功夫”，才有了后来博大精深的《管锥编》。今年3月，你们的杰出校友梁华出任华为公司董事长，媒体用“黑马”形容他从监事会主席一跃成为董事长，他的成功靠什么，靠的就是勤奋实干。前几天，媒体以“张联盟院士的‘梯度’人生”为题报道了我校张联盟院士和他的团队三十余年如一日，坚守一个研究方向、坚持做好一件事情，一步一步走向世界科技前沿的奋斗历程，他们靠的也是勤奋实干。我真诚地希望你们弘扬和传承求真务实的实干精神，不驰于空想，不骛于虚声，以实干夯实你们奋进的基石，去谱写属于你们自己的卓越人生。
亲爱的同学们，“有志者，事竟成，破釜沉舟，百二秦关终属楚。苦心人，天不负，卧薪尝胆，三千越甲可吞吴”。 新时代，属于坚定者、奋进者、实干者，属于每一个为了梦想而不懈奋斗的你们。我衷心希望你们牢记新时代赋予你们的光荣使命和历史责任，用母校“厚德博学、追求卓越”的大学精神和文化，引领你们的理想和追求，以远大的目标、坚定的意志、实干的精神，在奋斗的道路上收获你们的幸福生活，造就你们的卓越人生，创造出无愧于母校、无愧于时代的辉煌业绩！
再见了，亲爱的同学们！母校永远是你们人生的驿站，母校永远是你们心灵的家园，母校永远是你们坚强的后盾！祝你们一帆风顺，鹏程万里！
谢谢大家！

Note: README.md
# Python-data-analysis-and-visualization
武汉理工大学Python数据分析与可视化课程代码

File: XRD_AFOtxtd.csv
2d,Intensity,E
4,0,2.5
4.15,0,1.0
4.3,0
4.45,0
4.6,0
4.75,0
4.9,0
5.05,0
5.2,0
5.35,0
5.5,11.7811
5.65,14.9289
5.8,19.5287
5.95,26.6318
6.1,38.4446
6.25,60.2642
6.4,107.577
6.55,242.856
6.7,950.836
6.85,10000
7,769.191
7.15,217.182
7.3,99.7422
7.45,56.9244
7.6,36.7264
7.75,25.6348
7.9,18.8999
8.05,14.5072
8.2,15.4392
8.35,8.90159
8.5,11.2281
8.65,14.6011
8.8,19.7561
8.95,28.2088
9.1,43.5042
9.25,75.6083
9.4,162.093
9.55,551.298
9.7,7298.3
9.85,829.882
10,200.928
10.15,87.4319
10.3,48.5401
10.45,30.7986
10.6,21.2585
10.75,15.5486
10.9,11.8635
11.05,9.34809
11.2,7.62281
11.35,0.0846596
11.5,0.109149
11.65,0.14602
11.8,0.205263
11.95,0.3094
12.1,0.518359
12.25,7.02492
12.4,10.4235
12.55,38.3852
12.7,25.0206
12.85,19.2801
13,25.927
13.15,40.5056
13.3,74.086
13.45,177.963
13.6,866.675
13.75,4225.35
13.9,354.79
14.05,113.142
14.2,55.8762
14.35,52.5856
14.5,24.3586
14.65,15.4533
14.8,11.2335
14.95,8.60016
15.1,6.8103
15.25,0.872094
15.4,0.0558777
15.55,0.0424897
15.7,0.0333928
15.85,0.039369
16,0.149248
16.15,0.188676
16.3,0.246059
16.45,0.334203
16.6,0.479741
16.75,0.745781
16.9,2.56279
17.05,4.47162
17.2,12.6245
17.35,129.43
17.5,15.8806
17.65,9.43626
17.8,12.7231
17.95,26.3195
18.1,99.806
18.25,1073.35
18.4,83.9362
18.55,24.0685
18.7,11.62
18.85,7.3591
19,5.98185
19.15,7.0048
19.3,15.9015
19.45,147.98
19.6,40.7288
19.75,14.6177
19.9,12.2759
20.05,13.821
20.2,18.0249
20.35,27.4978
20.5,64.8881
20.65,290.437
20.8,100.652
20.95,183.603
21.1,695.611
21.25,6798.62
21.4,542.927
21.55,183.046
21.7,124.23
21.85,146.538
22,311.342
22.15,2395.68
22.3,2157.14
22.45,349.103
22.6,202.379
22.75,400.671
22.9,3371.96
23.05,369.552
23.2,1167.17
23.35,508.252
23.5,190.42
23.65,56.6388
23.8,26.3353
23.95,17.6012
24.1,13.0044
24.25,10.5326
24.4,10.1857
24.55,9.47269
24.7,10.4842
24.85,15.805
25,28.3916
25.15,84.747
25.3,545.262
25.45,296.063
25.6,135.862
25.75,854.518
25.9,541.452
26.05,86.1436
26.2,34.6432
26.35,19.1474
26.5,12.4402
26.65,9.24125
26.8,7.11852
26.95,5.68682
27.1,5.9276
27.25,7.53623
27.4,11.2625
27.55,44.6245
27.7,283.208
27.85,55.7648
28,98.867
28.15,223.486
28.3,24.2891
28.45,12.9279
28.6,12.9507
28.75,20.5642
28.9,102.193
29.05,84.9063
29.2,73.3901
29.35,409.068
29.5,655.856
29.65,228.075
29.8,292.237
29.95,38.3747
30.1,17.3605
30.25,10.8028
30.4,7.99087
30.55,6.60763
30.7,6.52385
30.85,7.69166
31,9.98656
31.15,22.8473
31.3,111.834
31.45,618.194
31.6,49.0096
31.75,15.2795
31.9,8.12155
32.05,5.46136
32.2,5.18356
32.35,6.54819
32.5,28.7736
32.65,22.7388
32.8,23.7446
32.95,19.8609
33.1,34.8719
33.25,298.102
33.4,137.766
33.55,126.035
33.7,357.979
33.85,38.2208
34,18.7009
34.15,24.2382
34.3,132.553
34.45,54.5218
34.6,50.4912
34.75,206.307
34.9,39.9155
35.05,209.1
35.2,70.4384
35.35,11.4683
35.5,5.73858
35.65,4.47667
35.8,4.14261
35.95,4.71247
36.1,6.90511
36.25,14.6078
36.4,77.992
36.55,254.059
36.7,74.7932
36.85,168.143
37,249.131
37.15,58.2677
37.3,23.2766
37.45,27.9551
37.6,100.124
37.75,352.42
37.9,384.99
38.05,55.7123
38.2,33.6747
38.35,84.8041
38.5,301.112
38.65,34.7352
38.8,14.0929
38.95,11.1318
39.1,23.6064
39.25,73.3873
39.4,30.6609
39.55,97.6499
39.7,63.1573
39.85,163.954
40,16.3255
40.15,5.96363
40.3,3.42236
40.45,2.60414
40.6,2.84564
40.75,4.62992
40.9,23.1049
41.05,59.4637
41.2,8.57068
41.35,3.1248
41.5,3.59398
41.65,15.2923
41.8,8.41825
41.95,62.3044
42.1,36.5556
42.25,6.80559
42.4,4.68518
42.55,6.08633
42.7,20.1862
42.85,88.0573
43,62.102
43.15,59.8329
43.3,206.713
43.45,99.5486
43.6,42.9965
43.75,17.7238
43.9,28.864
44.05,86.224
44.2,60.4328
44.35,19.8157
44.5,27.1416
44.65,5.89175
44.8,4.22188
44.95,5.66224
45.01,7.59091